File: xrd_generator/31.xy
19.99786 85.000
20.03909 93.000
20.08032 113.000
20.12155 107.000
20.16278 100.000
20.20401 95.000
20.24525 88.000
20.28648 96.000
20.32771 85.000
20.36894 85.000
20.41017 95.000
20.45140 90.000
20.49264 71.000
20.53387 88.000
20.57510 105.000
20.61633 80.000
20.65756 103.000
20.69879 89.000
20.74003 93.000
20.78126 95.000
20.82249 86.000
20.86372 82.000
20.90495 103.000
20.94618 105.000
20.98742 101.000
21.02865 87.000
21.06988 90.000
21.11111 77.000
21.15234 101.000
21.19357 84.000
21.23480 97.000
21.27604 97.000
21.31727 73.000
21.35850 90.000
21.39973 67.000
21.44096 74.000
21.48219 110.000
21.52343 88.000
21.56466 84.000
21.60589 106.000
21.64712 99.000
21.68835 84.000
21.72958 91.000
21.77082 72.000
21.81205 64.000
21.85328 85.000
21.89451 76.000
21.93574 80.000
21.97697 93.000
22.01821 91.000
22.05944 69.000
22.10067 68.000
22.14190 66.000
22.18313 79.000
22.22436 72.000
22.26560 91.000
22.30683 76.000
22.34806 70.000
22.38929 100.000
22.43052 72.000
22.47175 86.000
22.51298 76.000
22.55422 54.000
22.59545 85.000
22.63668 64.000
22.67791 77.000
22.71914 74.000
22.76037 80.000
22.80161 78.000
22.84284 59.000
22.88407 86.000
22.92530 72.000
22.96653 75.000
23.00776 82.000
23.04900 63.000
23.09023 70.000
23.13146 77.000
23.17269 59.000
23.21392 78.000
23.25515 80.000
23.29639 73.000
23.33762 76.000
23.37885 59.000
23.42008 81.000
23.46131 67.000
23.50254 81.000
23.54377 68.000
23.58501 71.000
23.62624 61.000
23.66747 74.000
23.70870 57.000
23.74993 82.000
23.79116 79.000
23.83240 58.000
23.87363 73.000
23.91486 68.000
23.95609 58.000
23.99732 78.000
24.03855 70.000
24.07979 63.000
24.12102 65.000
24.16225 68.000
24.20348 64.000
24.24471 84.000
24.28594 67.000
24.32718 86.000
24.36841 64.000
24.40964 61.000
24.45087 69.000
24.49210 72.000
24.53333 62.000
24.57456 78.000
24.61580 59.000
24.65703 74.000
24.69826 63.000
24.73949 67.000
24.78072 58.000
24.82195 63.000
24.86319 72.000
24.90442 58.000
24.94565 57.000
24.98688 63.000
25.02811 65.000
25.06934 62.000
25.11058 67.000
25.15181 56.000
25.19304 65.000
25.23427 54.000
25.27550 56.000
25.31673 70.000
25.35797 80.000
25.39920 67.000
25.44043 67.000
25.48166 57.000
25.52289 62.000
25.56412 57.000
25.60536 61.000
25.64659 68.000
25.68782 53.000
25.72905 57.000
25.77028 63.000
25.81151 63.000
25.85274 47.000
25.89398 67.000
25.93521 72.000
25.97644 65.000
26.01767 58.000
26.05890 57.000
26.10013 57.000
26.14137 48.000
26.18260 48.000
26.22383 56.000
26.26506 57.000
26.30629 51.000
26.34752 61.000
26.38876 57.000
26.42999 56.000
26.47122 66.000
26.51245 72.000
26.55368 54.000
26.59491 57.000
26.63615 50.000
26.67738 41.000
26.71861 62.000
26.75984 56.000
26.80107 50.000
26.84230 58.000
26.88353 59.000
26.92477 46.000
26.96600 62.000
27.00723 54.000
27.04846 58.000
27.08969 68.000
27.13092 51.000
27.17216 56.000
27.21339 46.000
27.25462 51.000
27.29585 60.000
27.33708 59.000
27.37831 69.000
27.41955 57.000
27.46078 48.000
27.50201 48.000
27.54324 55.000
27.58447 58.000
27.62570 54.000
27.66694 62.000
27.70817 40.000
27.74940 49.000
27.79063 33.000
27.83186 56.000
27.87309 47.000
27.91432 49.000
27.95556 48.000
27.99679 56.000
28.03802 51.000
28.07925 63.000
28.12048 57.000
28.16171 80.000
28.20295 87.000
28.24418 97.000
28.28541 80.000
28.32664 74.000
28.36787 74.000
28.40910 65.000
28.45034 94.000
28.49157 112.000
28.53280 94.000
28.57403 89.000
28.61526 67.000
28.65649 80.000
28.69773 72.000
28.73896 71.000
28.78019 63.000
28.82142 45.000
28.86265 62.000
28.90388 47.000
28.94512 43.000
28.98635 46.000
29.02758 44.000
29.06881 57.000
29.11004 60.000
29.15127 54.000
29.19250 46.000
29.23374 59.000
29.27497 67.000
29.31620 72.000
29.35743 85.000
29.39866 113.000
29.43989 105.000
29.48113 118.000
29.52236 113.000
29.56359 83.000
29.60482 74.000
29.64605 64.000
29.68728 55.000
29.72852 60.000
29.76975 53.000
29.81098 56.000
29.85221 59.000
29.89344 59.000
29.93467 64.000
29.97591 59.000
30.01714 55.000
30.05837 55.000
30.09960 50.000
30.14083 47.000
30.18206 49.000
30.22329 45.000
30.26453 45.000
30.30576 50.000
30.34699 43.000
30.38822 37.000
30.42945 57.000
30.47068 47.000
30.51192 40.000
30.55315 44.000
30.59438 67.000
30.63561 30.000
30.67684 53.000
30.71807 42.000
30.75931 38.000
30.80054 38.000
30.84177 53.000
30.88300 40.000
30.92423 45.000
30.96546 42.000
31.00670 34.000
31.04793 48.000
31.08916 44.000
31.13039 55.000
31.17162 44.000
31.21285 52.000
31.25409 58.000
31.29532 46.000
31.33655 64.000
31.37778 62.000
31.41901 58.000
31.46024 64.000
31.50147 50.000
31.54271 47.000
31.58394 49.000
31.62517 47.000
31.66640 44.000
31.70763 54.000
31.74886 51.000
31.79010 48.000
31.83133 41.000
31.87256 46.000
31.91379 35.000
31.95502 39.000
31.99625 37.000
32.03749 52.000
32.07872 40.000
32.11995 51.000
32.16118 40.000
32.20241 58.000
32.24364 64.000
32.28488 58.000
32.32611 103.000
32.36734 101.000
32.40857 101.000
32.44980 83.000
32.49103 68.000
32.53226 64.000
32.57350 47.000
32.61473 51.000
32.65596 61.000
32.69719 40.000
32.73842 57.000
32.77965 51.000
32.82089 53.000
32.86212 50.000
32.90335 43.000
32.94458 51.000
32.98581 41.000
33.02704 59.000
33.06828 43.000
33.10951 41.000
33.15074 34.000
33.19197 48.000
33.23320 52.000
33.27443 41.000
33.31567 57.000
33.35690 53.000
33.39813 70.000
33.43936 80.000
33.48059 68.000
33.52182 108.000
33.56305 123.000
33.60429 196.000
33.64552 311.000
33.68675 295.000
33.72798 243.000
33.76921 236.000
33.81044 201.000
33.85168 241.000
33.89291 344.000
33.93414 400.000
33.97537 382.000
34.01660 315.000
34.05783 212.000
34.09907 172.000
34.14030 110.000
34.18153 107.000
34.22276 78.000
34.26399 98.000
34.30522 104.000
34.34646 75.000
34.38769 82.000
34.42892 62.000
34.47015 52.000
34.51138 56.000
34.55261 45.000
34.59385 56.000
34.63508 55.000
34.67631 51.000
34.71754 64.000
34.75877 64.000
34.80000 70.000
34.84123 72.000
34.88247 130.000
34.92370 152.000
34.96493 158.000
35.00616 160.000
35.04739 135.000
35.08862 113.000
35.12986 66.000
35.17109 54.000
35.21232 50.000
35.25355 46.000
35.29478 37.000
35.33601 51.000
35.37725 42.000
35.41848 42.000
35.45971 47.000
35.50094 40.000
35.54217 39.000
35.58340 39.000
35.62464 42.000
35.66587 39.000
35.70710 37.000
35.74833 32.000
35.78956 30.000
35.83079 35.000
35.87202 33.000
35.91326 41.000
35.95449 29.000
35.99572 29.000
36.03695 31.000
36.07818 36.000
36.11941 36.000
36.16065 35.000
36.20188 45.000
36.24311 43.000
36.28434 41.000
36.32557 61.000
36.36680 45.000
36.40804 66.000
36.44927 48.000
36.49050 50.000
36.53173 61.000
36.57296 75.000
36.61419 54.000
36.65543 72.000
36.69666 58.000
36.73789 57.000
36.77912 74.000
36.82035 43.000
36.86158 42.000
36.90281 53.000
36.94405 34.000
36.98528 34.000
37.02651 37.000
37.06774 47.000
37.10897 20.000
37.15020 35.000
37.19144 54.000
37.23267 38.000
37.27390 35.000
37.31513 44.000
37.35636 54.000
37.39759 57.000
37.43883 67.000
37.48006 79.000
37.52129 70.000
37.56252 49.000
37.60375 72.000
37.64498 59.000
37.68622 37.000
37.72745 33.000
37.76868 32.000
37.80991 29.000
37.85114 38.000
37.89237 50.000
37.93361 36.000
37.97484 34.000
38.01607 24.000
38.05730 28.000
38.09853 20.000
38.13976 22.000
38.18099 21.000
38.22223 29.000
38.26346 31.000
38.30469 24.000
38.34592 43.000
38.38715 30.000
38.42838 34.000
38.46962 37.000
38.51085 30.000
38.55208 34.000
38.59331 22.000
38.63454 28.000
38.67577 27.000
38.71701 29.000
38.75824 28.000
38.79947 34.000
38.84070 39.000
38.88193 36.000
38.92316 24.000
38.96440 20.000
39.00563 27.000
39.04686 23.000
39.08809 38.000
39.12932 24.000
39.17055 33.000
39.21178 38.000
39.25302 28.000
39.29425 30.000
39.33548 34.000
39.37671 36.000
39.41794 31.000
39.45917 29.000
39.50041 35.000
39.54164 25.000
39.58287 28.000
39.62410 40.000
39.66533 29.000
39.70656 36.000
39.74780 38.000
39.78903 31.000
39.83026 41.000
39.87149 39.000
39.91272 46.000
39.95395 31.000
39.99519 48.000
40.03642 35.000
40.07765 37.000
40.11888 26.000
40.16011 47.000
40.20134 41.000
40.24258 35.000
40.28381 44.000
40.32504 39.000
40.36627 27.000
40.40750 28.000
40.44873 18.000
40.48996 24.000
40.53120 14.000
40.57243 27.000
40.61366 35.000
40.65489 29.000
40.69612 33.000
40.73735 27.000
40.77859 27.000
40.81982 18.000
40.86105 23.000
40.90228 39.000
40.94351 22.000
40.98474 23.000
41.02598 25.000
41.06721 30.000
41.10844 32.000
41.14967 20.000
41.19090 19.000
41.23213 26.000
41.27337 34.000
41.31460 33.000
41.35583 27.000
41.39706 30.000
41.43829 35.000
41.47952 25.000
41.52075 26.000
41.56199 26.000
41.60322 31.000
41.64445 32.000
41.68568 30.000
41.72691 29.000
41.76814 23.000
41.80938 31.000
41.85061 17.000
41.89184 26.000
41.93307 27.000
41.97430 28.000
42.01553 14.000
42.05677 33.000
42.09800 28.000
42.13923 20.000
42.18046 30.000
42.22169 22.000
42.26292 22.000
42.30416 30.000
42.34539 29.000
42.38662 30.000
42.42785 17.000
42.46908 23.000
42.51031 21.000
42.55154 21.000
42.59278 30.000
42.63401 25.000
42.67524 30.000
42.71647 24.000
42.75770 43.000
42.79893 21.000
42.84017 38.000
42.88140 37.000
42.92263 17.000
42.96386 25.000
43.00509 37.000
43.04632 26.000
43.08756 26.000
43.12879 35.000
43.17002 18.000
43.21125 19.000
43.25248 36.000
43.29371 21.000
43.33495 36.000
43.37618 21.000
43.41741 26.000
43.45864 20.000
43.49987 27.000
43.54110 40.000
43.58234 17.000
43.62357 22.000
43.66480 20.000
43.70603 28.000
43.74726 29.000
43.78849 24.000
43.82972 25.000
43.87096 21.000
43.91219 22.000
43.95342 22.000
43.99465 17.000
44.03588 13.000
44.07711 27.000
44.11835 21.000
44.15958 14.000
44.20081 17.000
44.24204 18.000
44.28327 24.000
44.32450 15.000
44.36574 19.000
44.40697 21.000
44.44820 26.000
44.48943 26.000
44.53066 26.000
44.57189 19.000
44.61313 30.000
44.65436 37.000
44.69559 24.000
44.73682 28.000
44.77805 24.000
44.81928 20.000
44.86051 29.000
44.90175 19.000
44.94298 24.000
44.98421 19.000
45.02544 27.000
45.06667 21.000
45.10790 21.000
45.14914 32.000
45.19037 24.000
45.23160 23.000
45.27283 23.000
45.31406 20.000
45.35529 19.000
45.39653 30.000
45.43776 27.000
45.47899 20.000
45.52022 31.000
45.56145 19.000
45.60268 24.000
45.64392 26.000
45.68515 16.000
45.72638 19.000
45.76761 25.000
45.80884 23.000
45.85007 25.000
45.89130 30.000
45.93254 23.000
45.97377 25.000
46.01500 25.000
46.05623 23.000
46.09746 16.000
46.13869 18.000
46.17993 26.000
46.22116 29.000
46.26239 30.000
46.30362 30.000
46.34485 27.000
46.38608 31.000
46.42732 18.000
46.46855 31.000
46.50978 25.000
46.55101 17.000
46.59224 22.000
46.63347 17.000
46.67471 19.000
46.71594 34.000
46.75717 37.000
46.79840 23.000
46.83963 19.000
46.88086 24.000
46.92210 30.000
46.96333 28.000
47.00456 28.000
47.04579 26.000
47.08702 26.000
47.12825 23.000
47.16948 24.000
47.21072 23.000
47.25195 32.000
47.29318 29.000
47.33441 32.000
47.37564 23.000
47.41687 32.000
47.45811 48.000
47.49934 59.000
47.54057 52.000
47.58180 42.000
47.62303 50.000
47.66426 49.000
47.70550 32.000
47.74673 25.000
47.78796 34.000
47.82919 30.000
47.87042 30.000
47.91165 25.000
47.95289 31.000
47.99412 40.000
48.03535 16.000
48.07658 31.000
48.11781 35.000
48.15904 43.000
48.20027 47.000
48.24151 45.000
48.28274 41.000
48.32397 42.000
48.36520 34.000
48.40643 30.000
48.44766 26.000
48.48890 37.000
48.53013 31.000
48.57136 30.000
48.61259 24.000
48.65382 29.000
48.69505 30.000
48.73629 31.000
48.77752 29.000
48.81875 20.000
48.85998 22.000
48.90121 36.000
48.94244 28.000
48.98368 18.000
49.02491 27.000
49.06614 11.000
49.10737 22.000
49.14860 22.000
49.18983 18.000
49.23107 13.000
49.27230 31.000
49.31353 32.000
49.35476 26.000
49.39599 29.000
49.43722 22.000
49.47845 27.000
49.51969 23.000
49.56092 32.000
49.60215 28.000
49.64338 27.000
49.68461 26.000
49.72584 26.000
49.76708 19.000
49.80831 21.000
49.84954 27.000
49.89077 28.000
49.93200 30.000
49.97323 19.000
50.01447 31.000
50.05570 22.000
50.09693 29.000
50.13816 30.000
50.17939 36.000
50.22062 30.000
50.26186 37.000
50.30309 23.000
50.34432 28.000
50.38555 23.000
50.42678 23.000
50.46801 32.000
50.50924 21.000
50.55048 21.000
50.59171 29.000
50.63294 33.000
50.67417 27.000
50.71540 28.000
50.75663 23.000
50.79787 29.000
50.83910 27.000
50.88033 24.000
50.92156 30.000
50.96279 18.000
51.00402 22.000
51.04526 25.000
51.08649 33.000
51.12772 46.000
51.16895 37.000
51.21018 34.000
51.25141 30.000
51.29265 36.000
51.33388 30.000
51.37511 34.000
51.41634 31.000
51.45757 29.000
51.49880 35.000
51.54003 29.000
51.58127 30.000
51.62250 30.000
51.66373 28.000
51.70496 35.000
51.74619 27.000
51.78742 26.000
51.82866 29.000
51.86989 23.000
51.91112 29.000
51.95235 39.000
51.99358 29.000
52.03481 33.000
52.07605 35.000
52.11728 33.000
52.15851 22.000
52.19974 29.000
52.24097 27.000
52.28220 38.000
52.32344 41.000
52.36467 28.000
52.40590 37.000
52.44713 30.000
52.48836 34.000
52.52959 29.000
52.57083 26.000
52.61206 24.000
52.65329 23.000
52.69452 24.000
52.73575 14.000
52.77698 28.000
52.81821 26.000
52.85945 22.000
52.90068 24.000
52.94191 24.000
52.98314 23.000
53.02437 24.000
53.06560 20.000
53.10684 33.000
53.14807 32.000
53.18930 25.000
53.23053 20.000
53.27176 34.000
53.31299 45.000
53.35423 34.000
53.39546 38.000
53.43669 38.000
53.47792 34.000
53.51915 27.000
53.56038 25.000
53.60162 27.000
53.64285 23.000
53.68408 20.000
53.72531 23.000
53.76654 23.000
53.80777 29.000
53.84900 15.000
53.89024 23.000
53.93147 21.000
53.97270 34.000
54.01393 23.000
54.05516 15.000
54.09639 21.000
54.13763 29.000
54.17886 20.000
54.22009 20.000
54.26132 26.000
54.30255 22.000
54.34378 18.000
54.38502 22.000
54.42625 27.000
54.46748 20.000
54.50871 31.000
54.54994 31.000
54.59117 27.000
54.63241 33.000
54.67364 29.000
54.71487 27.000
54.75610 20.000
54.79733 19.000
54.83856 30.000
54.87979 29.000
54.92103 21.000
54.96226 24.000
55.00349 33.000
55.04472 30.000
55.08595 36.000
55.12718 43.000
55.16842 52.000
55.20965 46.000
55.25088 50.000
55.29211 47.000
55.33334 46.000
55.37457 40.000
55.41581 26.000
55.45704 30.000
55.49827 42.000
55.53950 48.000
55.58073 56.000
55.62196 75.000
55.66320 91.000
55.70443 88.000
55.74566 103.000
55.78689 88.000
55.82812 75.000
55.86935 66.000
55.91059 57.000
55.95182 54.000
55.99305 38.000
56.03428 40.000
56.07551 51.000
56.11674 36.000
56.15797 48.000
56.19921 43.000
56.24044 32.000
56.28167 36.000
56.32290 37.000
56.36413 33.000
56.40536 31.000
56.44660 34.000
56.48783 18.000
56.52906 27.000
56.57029 41.000
56.61152 29.000
56.65275 25.000
56.69399 22.000
56.73522 23.000
56.77645 35.000
56.81768 23.000
56.85891 25.000
56.90014 44.000
56.94138 29.000
56.98261 35.000
57.02384 36.000
57.06507 40.000
57.10630 39.000
57.14753 45.000
57.18876 53.000
57.23000 64.000
57.27123 54.000
57.31246 103.000
57.35369 126.000
57.39492 176.000
57.43615 176.000
57.47739 192.000
57.51862 160.000
57.55985 119.000
57.60108 113.000
57.64231 100.000
57.68354 80.000
57.72478 86.000
57.76601 51.000
57.80724 37.000
57.84847 36.000
57.88970 34.000
57.93093 44.000
57.97217 31.000
58.01340 37.000
58.05463 34.000
58.09586 27.000
58.13709 35.000
58.17832 25.000
58.21955 29.000
58.26079 34.000
58.30202 55.000
58.34325 48.000
58.38448 51.000
58.42571 70.000
58.46694 100.000
58.50818 82.000
58.54941 78.000
58.59064 56.000
58.63187 67.000
58.67310 59.000
58.71433 44.000
58.75557 47.000
58.79680 29.000
58.83803 37.000
58.87926 34.000
58.92049 23.000
58.96172 32.000
59.00296 24.000
59.04419 28.000
59.08542 26.000
59.12665 27.000
59.16788 17.000
59.20911 23.000
59.25035 21.000
59.29158 16.000
59.33281 28.000
59.37404 22.000
59.41527 26.000
59.45650 16.000
59.49773 31.000
59.53897 33.000
59.58020 31.000
59.62143 25.000
59.66266 24.000
59.70389 29.000
59.74512 27.000
59.78636 22.000
59.82759 18.000
59.86882 21.000
59.91005 16.000
59.95128 25.000
59.99251 21.000
60.03375 25.000
60.07498 23.000
60.11621 14.000
60.15744 27.000
60.19867 18.000
60.23990 20.000
60.28114 23.000
60.32237 26.000
60.36360 28.000
60.40483 27.000
60.44606 28.000
60.48729 35.000
60.52852 30.000
60.56976 31.000
60.61099 29.000
60.65222 36.000
60.69345 32.000
60.73468 34.000
60.77591 19.000
60.81715 34.000
60.85838 21.000
60.89961 32.000
60.94084 25.000
60.98207 23.000
61.02330 24.000
61.06454 17.000
61.10577 17.000
61.14700 23.000
61.18823 21.000
61.22946 23.000
61.27069 18.000
61.31193 21.000
61.35316 20.000
61.39439 29.000
61.43562 20.000
61.47685 21.000
61.51808 16.000
61.55932 22.000
61.60055 17.000
61.64178 26.000
61.68301 18.000
61.72424 28.000
61.76547 16.000
61.80670 18.000
61.84794 23.000
61.88917 31.000
61.93040 18.000
61.97163 28.000
62.01286 28.000
62.05409 29.000
62.09533 25.000
62.13656 29.000
62.17779 33.000
62.21902 31.000
62.26025 27.000
62.30148 28.000
62.34272 27.000
62.38395 29.000
62.42518 28.000
62.46641 20.000
62.50764 24.000
62.54887 30.000
62.59011 30.000
62.63134 16.000
62.67257 20.000
62.71380 17.000
62.75503 18.000
62.79626 32.000
62.83749 18.000
62.87873 20.000
62.91996 24.000
62.96119 33.000
63.00242 22.000
63.04365 16.000
63.08488 23.000
63.12612 22.000
63.16735 28.000
63.20858 23.000
63.24981 20.000
63.29104 15.000
63.33227 15.000
63.37351 17.000
63.41474 21.000
63.45597 19.000
63.49720 12.000
63.53843 30.000
63.57966 23.000
63.62090 30.000
63.66213 27.000
63.70336 23.000
63.74459 23.000
63.78582 25.000
63.82705 26.000
63.86828 26.000
63.90952 21.000
63.95075 20.000
63.99198 31.000
64.03321 23.000
64.07444 30.000
64.11567 26.000
64.15691 17.000
64.19814 20.000
64.23937 16.000
64.28060 18.000
64.32183 13.000
64.36306 15.000
64.40430 17.000
64.44553 21.000
64.48676 24.000
64.52799 21.000
64.56922 22.000
64.61045 17.000
64.65169 17.000
64.69292 16.000
64.73415 16.000
64.77538 26.000
64.81661 20.000
64.85784 24.000
64.89908 23.000
64.94031 27.000
64.98154 22.000
65.02277 20.000
65.06400 27.000
65.10523 27.000
65.14646 18.000
65.18770 26.000
65.22893 24.000
65.27016 26.000
65.31139 23.000
65.35262 28.000
65.39385 26.000
65.43509 22.000
65.47632 21.000
65.51755 18.000
65.55878 35.000
65.60001 30.000
65.64124 18.000
65.68248 22.000
65.72371 21.000
65.76494 30.000
65.80617 19.000
65.84740 29.000
65.88863 22.000
65.92987 28.000
65.97110 26.000
66.01233 32.000
66.05356 28.000
66.09479 29.000
66.13602 33.000
66.17725 28.000
66.21849 20.000
66.25972 28.000
66.30095 36.000
66.34218 31.000
66.38341 28.000
66.42464 21.000
66.46588 20.000
66.50711 23.000
66.54834 19.000
66.58957 24.000
66.63080 17.000
66.67203 23.000
66.71327 21.000
66.75450 19.000
66.79573 27.000
66.83696 31.000
66.87819 17.000
66.91942 19.000
66.96066 17.000
67.00189 26.000
67.04312 21.000
67.08435 27.000
67.12558 20.000
67.16681 27.000
67.20804 25.000
67.24928 24.000
67.29051 17.000
67.33174 26.000
67.37297 23.000
67.41420 29.000
67.45543 13.000
67.49667 32.000
67.53790 24.000
67.57913 23.000
67.62036 31.000
67.66159 23.000
67.70282 20.000
67.74406 24.000
67.78529 36.000
67.82652 27.000
67.86775 21.000
67.90898 25.000
67.95021 25.000
67.99145 29.000
68.03268 38.000
68.07391 41.000
68.11514 44.000
68.15637 37.000
68.19760 39.000
68.23884 40.000
68.28007 32.000
68.32130 50.000
68.36253 46.000
68.40376 44.000
68.44499 49.000
68.48622 38.000
68.52746 21.000
68.56869 34.000
68.60992 39.000
68.65115 35.000
68.69238 34.000
68.73361 26.000
68.77485 27.000
68.81608 43.000
68.85731 45.000
68.89854 56.000
68.93977 56.000
68.98100 40.000
69.02224 45.000
69.06347 34.000
69.10470 34.000
69.14593 41.000
69.18716 35.000
69.22839 38.000
69.26963 22.000
69.31086 27.000
69.35209 24.000
69.39332 24.000
69.43455 27.000
69.47578 19.000
69.51701 17.000
69.55825 27.000
69.59948 27.000
69.64071 14.000
69.68194 29.000
69.72317 30.000
69.76440 30.000
69.80564 32.000
69.84687 29.000
69.88810 40.000
69.92933 42.000
69.97056 42.000
70.01179 46.000
70.05303 36.000
70.09426 51.000
70.13549 43.000
70.17672 33.000
70.21795 45.000
70.25918 41.000
70.30042 45.000
70.34165 32.000
70.38288 24.000
70.42411 38.000
70.46534 51.000
70.50657 31.000
70.54781 42.000
70.58904 31.000
70.63027 38.000
70.67150 31.000
70.71273 31.000
70.75396 25.000
70.79519 35.000
70.83643 34.000
70.87766 24.000
70.91889 34.000
70.96012 32.000
71.00135 23.000
71.04258 28.000
71.08382 32.000
71.12505 28.000
71.16628 32.000
71.20751 24.000
71.24874 31.000
71.28997 39.000
71.33121 25.000
71.37244 32.000
71.41367 34.000
71.45490 40.000
71.49613 28.000
71.53736 30.000
71.57860 24.000
71.61983 20.000
71.66106 20.000
71.70229 29.000
71.74352 18.000
71.78475 28.000
71.82598 23.000
71.86722 24.000
71.90845 23.000
71.94968 33.000
71.99091 21.000
72.03214 21.000
72.07337 26.000
72.11461 15.000
72.15584 22.000
72.19707 15.000
72.23830 26.000
72.27953 25.000
72.32076 22.000
72.36200 14.000
72.40323 21.000
72.44446 16.000
72.48569 19.000
72.52692 20.000
72.56815 18.000
72.60939 20.000
72.65062 18.000
72.69185 17.000
72.73308 19.000
72.77431 19.000
72.81554 23.000
72.85677 23.000
72.89801 18.000
72.93924 13.000
72.98047 20.000
73.02170 20.000
73.06293 11.000
73.10416 25.000
73.14540 13.000
73.18663 22.000
73.22786 20.000
73.26909 24.000
73.31032 23.000
73.35155 14.000
73.39279 15.000
73.43402 24.000
73.47525 22.000
73.51648 20.000
73.55771 13.000
73.59894 19.000
73.64018 18.000
73.68141 18.000
73.72264 18.000
73.76387 22.000
73.80510 20.000
73.84633 18.000
73.88757 25.000
73.92880 20.000
73.97003 27.000
74.01126 28.000
74.05249 26.000
74.09372 15.000
74.13495 28.000
74.17619 38.000
74.21742 23.000
74.25865 18.000
74.29988 21.000
74.34111 23.000
74.38234 21.000
74.42358 18.000
74.46481 18.000
74.50604 26.000
74.54727 20.000
74.58850 19.000
74.62973 16.000
74.67097 22.000
74.71220 22.000
74.75343 22.000
74.79466 22.000
74.83589 22.000
74.87712 29.000
74.91836 19.000
74.95959 14.000
75.00082 19.000
75.04205 26.000
75.08328 17.000
75.12451 9.000
75.16574 25.000
75.20698 18.000
75.24821 23.000
75.28944 25.000
75.33067 14.000
75.37190 21.000
75.41313 18.000
75.45437 22.000
75.49560 22.000
75.53683 23.000
75.57806 17.000
75.61929 16.000
75.66052 15.000
75.70176 25.000
75.74299 17.000
75.78422 23.000
75.82545 27.000
75.86668 22.000
75.90791 27.000
75.94915 22.000
75.99038 22.000
76.03161 19.000
76.07284 15.000
76.11407 18.000
76.15530 24.000
76.19653 22.000
76.23777 24.000
76.27900 26.000
76.32023 25.000
76.36146 27.000
76.40269 22.000
76.44392 27.000
76.48516 29.000
76.52639 22.000
76.56762 23.000
76.60885 22.000
76.65008 26.000
76.69131 25.000
76.73255 33.000
76.77378 24.000
76.81501 26.000
76.85624 24.000
76.89747 21.000
76.93870 15.000
76.97994 16.000
77.02117 18.000
77.06240 16.000
77.10363 19.000
77.14486 21.000
77.18609 16.000
77.22733 23.000
77.26856 19.000
77.30979 17.000
77.35102 19.000
77.39225 26.000
77.43348 30.000
77.47471 26.000
77.51595 24.000
77.55718 21.000
77.59841 31.000
77.63964 21.000
77.68087 20.000
77.72210 26.000
77.76334 31.000
77.80457 28.000
77.84580 11.000
77.88703 21.000
77.92826 24.000
77.96949 17.000
78.01073 21.000
78.05196 24.000
78.09319 18.000
78.13442 24.000
78.17565 22.000
78.21688 19.000
78.25812 18.000
78.29935 31.000
78.34058 18.000
78.38181 20.000
78.42304 19.000
78.46427 25.000
78.50550 19.000
78.54674 21.000
78.58797 13.000
78.62920 21.000
78.67043 24.000
78.71166 22.000
78.75289 21.000
78.79413 18.000
78.83536 25.000
78.87659 32.000
78.91782 20.000
78.95905 14.000
79.00028 19.000
79.04152 24.000
79.08275 17.000
79.12398 20.000
79.16521 33.000
79.20644 25.000
79.24767 16.000
79.28891 20.000
79.33014 17.000
79.37137 14.000
79.41260 33.000
79.45383 29.000
79.49506 23.000
79.53630 27.000
79.57753 25.000
79.61876 14.000
79.65999 24.000
79.70122 20.000
79.74245 22.000
79.78368 19.000
79.82492 15.000
79.86615 24.000
79.90738 25.000
79.94861 31.000
79.98984 23.000
80.00015 25.000